wavelength,mCherry
550,0.001
551,0.001
552,0.002
553,0.002
554,0.002
555,0.003
556,0.003
557,0.004
558,0.004
559,0.005
560,0.006
561,0.009
562,0.016
563,0.025
564,0.029
565,0.026
566,0.020
567,0.019
568,0.022
569,0.026
570,0.030
571,0.034
572,0.042
573,0.048
574,0.055
575,0.065
576,0.075
577,0.089
578,0.102
579,0.119
580,0.138
581,0.160
582,0.183
583,0.211
584,0.237
585,0.265
586,0.297
587,0.335
588,0.369
589,0.406
590,0.447
591,0.488
592,0.531
593,0.571
594,0.613
595,0.655
596,0.692
597,0.733
598,0.767
599,0.808
600,0.839
601,0.869
602,0.896
603,0.920
604,0.937
605,0.961
606,0.974
607,0.980
608,0.989
609,0.996
610,1.000
611,0.990
612,0.991
613,0.976
614,0.968
615,0.955
616,0.942
617,0.931
618,0.903
619,0.892
620,0.871
621,0.852
622,0.830
623,0.812
624,0.795
625,0.772
626,0.754
627,0.739
628,0.719
629,0.706
630,0.690
631,0.674
632,0.662
633,0.650
634,0.633
635,0.616
636,0.605
637,0.596
638,0.582
639,0.576
640,0.562
641,0.554
642,0.543
643,0.538
644,0.535
645,0.521
646,0.514
647,0.503
648,0.499
649,0.489
650,0.483
651,0.477
652,0.471
653,0.462
654,0.455
655,0.452
656,0.440
657,0.433
658,0.423
659,0.416
660,0.413
661,0.406
662,0.400
663,0.392
664,0.386
665,0.378
666,0.371
667,0.365
668,0.359
669,0.354
670,0.350
671,0.340
672,0.336
673,0.329
674,0.320
675,0.314
676,0.309
677,0.305
678,0.297
679,0.286
680,0.279
681,0.276
682,0.268
683,0.260
684,0.252
685,0.247
686,0.240
687,0.232
688,0.231
689,0.225
690,0.217
691,0.206
692,0.207
693,0.198
694,0.195
695,0.190
696,0.185
697,0.180
698,0.176
699,0.169
700,0.167
701,0.163
702,0.158
703,0.154
704,0.149
705,0.145
706,0.142
707,0.142
708,0.136
709,0.135
710,0.128
711,0.126
712,0.124
713,0.122
714,0.120
715,0.116
716,0.111
717,0.110
718,0.106
719,0.104
720,0.102
721,0.100
722,0.097
723,0.096
724,0.094
725,0.092
726,0.089
727,0.087
728,0.086
729,0.083
730,0.081
731,0.079
732,0.077
733,0.078
734,0.073
735,0.075
736,0.071
737,0.073
738,0.068
739,0.067
740,0.066
741,0.066
742,0.061
743,0.063
744,0.060
745,0.061
746,0.057
747,0.056
748,0.056
749,0.056
750,0.054
751,0.051
752,0.052
753,0.050
754,0.050
755,0.048
756,0.045
757,0.046
758,0.044
759,0.043
760,0.040
761,0.041
762,0.040
763,0.040
764,0.039
765,0.036
766,0.038
767,0.037
768,0.034
769,0.033
770,0.034
771,0.033
772,0.032
773,0.031
774,0.030
775,0.029
776,0.030
777,0.030
778,0.027
779,0.026
780,0.027
781,0.025
782,0.025
783,0.026
784,0.024
785,0.024
786,0.023
787,0.022
788,0.022
789,0.022
790,0.020
791,0.021
792,0.020
793,0.020
794,0.018
795,0.017
796,0.020
797,0.018
798,0.017
799,0.016
800,0.017