## Type: dichroic
## Name: Chroma ZT405/488/560/647TPC 22.5deg batch 260830
wavelength,transmission
380,0.139058
381,0.0942276
382,0.0367252
383,0.0191007
384,0.012221
385,0.0086896
386,0.0068272
387,0.0063666
388,0.0063979
389,0.0079429
390,0.0094968
391,0.0107151
392,0.0188356
393,0.0327444
394,0.0633125
395,0.135046
396,0.28703
397,0.536607
398,0.79355
399,0.939552
400,0.976894
401,0.98296
402,0.979446
403,0.969788
404,0.963641
405,0.962664
406,0.964505
407,0.96632
408,0.967753
409,0.972068
410,0.965055
411,0.913645
412,0.773129
413,0.563985
414,0.33362
415,0.17678
416,0.0856707
417,0.0432884
418,0.0221341
419,0.012367
420,0.0067679
421,0.004746
422,0.0032684
423,0.0024435
424,0.0018174
425,0.001757
426,0.0011799
427,0.0013974
428,0.0013187
429,0.0011062
430,0.0013489
431,0.0013502
432,0.0018843
433,0.0022854
434,0.0033178
435,0.0059161
436,0.0107121
437,0.0185282
438,0.0248404
439,0.0232245
440,0.0172445
441,0.0114937
442,0.0084309
443,0.0074514
444,0.0071779
445,0.0078918
446,0.0093946
447,0.0120802
448,0.0164477
449,0.0214984
450,0.0256039
451,0.0266718
452,0.0247155
453,0.0210604
454,0.0180656
455,0.0165478
456,0.0161037
457,0.0170346
458,0.0192738
459,0.0229904
460,0.0275044
461,0.0311234
462,0.0323254
463,0.0294949
464,0.0248904
465,0.0198818
466,0.0162771
467,0.0136128
468,0.0121183
469,0.0113226
470,0.0110404
471,0.0113196
472,0.0122714
473,0.0137105
474,0.016124
475,0.0198298
476,0.0258831
477,0.0355094
478,0.0515129
479,0.0778408
480,0.130112
481,0.221767
482,0.38228
483,0.615389
484,0.826568
485,0.943275
486,0.952643
487,0.924939
488,0.913592
489,0.922928
490,0.943808
491,0.956628
492,0.943701
493,0.879516
494,0.764305
495,0.583098
496,0.42977
497,0.277046
498,0.175288
499,0.108077
500,0.0679467
501,0.0445723
502,0.0306262
503,0.0226846
504,0.0170859
505,0.0135081
506,0.0114086
507,0.009627
508,0.0085305
509,0.0078954
510,0.0075131
511,0.0075243
512,0.0076427
513,0.0081903
514,0.0092699
515,0.0107999
516,0.0132576
517,0.0172026
518,0.0219939
519,0.0267526
520,0.029587
521,0.0274531
522,0.0219756
523,0.0160934
524,0.0114503
525,0.0083614
526,0.0063778
527,0.0049597
528,0.0040697
529,0.0035133
530,0.0031704
531,0.0029024
532,0.0027109
533,0.0026366
534,0.0025663
535,0.0025707
536,0.0026156
537,0.0028619
538,0.0031343
539,0.0034643
540,0.0040031
541,0.0047287
542,0.0057123
543,0.0070478
544,0.0089379
545,0.0119145
546,0.0158443
547,0.0232059
548,0.0355846
549,0.0547818
550,0.0923763
551,0.152587
552,0.263275
553,0.423407
554,0.636036
555,0.814653
556,0.909892
557,0.943948
558,0.955863
559,0.970627
560,0.982504
561,0.988493
562,0.985804
563,0.97662
564,0.952154
565,0.884454
566,0.754239
567,0.556352
568,0.356305
569,0.209877
570,0.119297
571,0.0676745
572,0.0415343
573,0.0260849
574,0.0170353
575,0.0114666
576,0.0082061
577,0.005958
578,0.0044758
579,0.0035271
580,0.002748
581,0.0023318
582,0.0019124
583,0.001536
584,0.0012893
585,0.0010777
586,0.0009176
587,0.0008446
588,0.0008507
589,0.0006827
590,0.0004704
591,0.0005465
592,0.0005243
593,0.0004842
594,0.0004372
595,0.0003268
596,0.0005289
597,0.000398
598,0.0002205
599,0.0002737
600,0.0003308
601,0.0003672
602,0.0003499
603,0.0003335
604,0.0004083
605,0.0004588
606,0.0004944
607,0.0004256
608,0.0003817
609,0.0004824
610,0.0006654
611,0.0008061
612,0.0008817
613,0.0010321
614,0.0010191
615,0.0012673
616,0.0016452
617,0.0017493
618,0.0022624
619,0.0026926
620,0.0033242
621,0.0043789
622,0.005625
623,0.0073311
624,0.0097202
625,0.0133797
626,0.0187064
627,0.0268091
628,0.0395844
629,0.0596293
630,0.0955347
631,0.147749
632,0.230205
633,0.35284
634,0.4975
635,0.648807
636,0.778586
637,0.869179
638,0.920489
639,0.946388
640,0.959666
641,0.975267
642,0.981939
643,0.985207
644,0.98348
645,0.978939
646,0.976709
647,0.97527
648,0.964443
649,0.911279
650,0.796693
651,0.618988
652,0.43416
653,0.282596
654,0.178318
655,0.11141
656,0.0689682
657,0.045207
658,0.0288097
659,0.0195317
660,0.0139609
661,0.0098105
662,0.0073658
663,0.0054791
664,0.0043697
665,0.0034563
666,0.0027754
667,0.0020907
668,0.0017297
669,0.0014701
670,0.0011987
671,0.0010647
672,0.0008666
673,0.0008202
674,0.0006982
675,0.0005437
676,0.0005343
677,0.0004499
678,0.0004201
679,0.0004224
680,0.0003492
681,0.0003958
682,0.000262
683,0.0002125
684,0.0002969
685,0.0001762
686,0.0002433
687,0.0002214
688,0.0002518
689,0.0002717
690,0.000259
691,0.0001962
692,0.0001584
693,0.0002366
694,0.0001895
695,0.0002364
696,0.0001767
697,0.0001588
698,0.0001862
699,0.0002708
700,0.0001062
701,0.0002355
702,0.0002643
703,0.0002637
704,0.0002952
705,0.0003147
706,0.0003145
707,0.0003979
708,0.0005158
709,0.0004482
710,0.0005604
711,0.0006258
712,0.0007272
713,0.0009344
714,0.001096
715,0.001283
716,0.0017428
717,0.0023079
718,0.0030886
719,0.004393
720,0.0067116
721,0.0107515
722,0.0183521
723,0.028246
724,0.0350485
725,0.03298
726,0.0276467
727,0.0272919
728,0.0290911
729,0.0247074
730,0.0163121
731,0.0099338
732,0.0068051
733,0.0051054
734,0.0040779
735,0.0033864
736,0.002894
737,0.0025994
738,0.0023613
739,0.0021341
740,0.0019704
741,0.0019104
742,0.0018142
743,0.0017887
744,0.0017659
745,0.0018089
746,0.001755
747,0.0018362
748,0.0019077
749,0.0018972
750,0.001942
751,0.0020643
752,0.0022613
753,0.0024204
754,0.0025511
755,0.0027631
756,0.0031659
757,0.0034806
758,0.0039154
759,0.004356
760,0.0050976
